Trial LumTarget LumMatch LT-LM LumComp %deviance Choice RT
1 53.0 68.4285714286 -15.4285714286 75.2714285715 42.0 1 0.679368389996
2 53.0 68.4285714286 -15.4285714286 71.85 36.0 1 0.385332229998
3 53.0 68.4285714286 -15.4285714286 75.2714285715 42.0 1 1.1005821
4 53.0 68.4285714286 -15.4285714286 68.4285714286 29.0 1 0.34298469
5 51.9 63.0 -11.1 75.6 46.0 1 0.310359489999
6 48.8333333333 64.0 -15.1666666667 67.2 38.0 1 0.32337057
7 51.9 63.0 -11.1 59.85 15.0 1 1.25716649
8 51.9 63.0 -11.1 56.7 9.0 1 0.514209759996
9 51.9 63.0 -11.1 75.6 46.0 1 0.337361679998
10 55.4 67.1666666667 -11.7666666667 70.525 27.0 0 0.868064029997
11 48.8333333333 64.0 -15.1666666667 60.8 25.0 1 0.272519459999
12 48.8333333333 64.0 -15.1666666667 70.4 44.0 1 0.315197769996
13 53.0 68.4285714286 -15.4285714286 61.5857142857 16.0 1 0.293911779998
14 53.0 68.4285714286 -15.4285714286 61.5857142857 16.0 1 0.219321009998
15 53.0 68.4285714286 -15.4285714286 82.1142857143 55.0 1 0.282772949999
16 55.4 67.1666666667 -11.7666666667 67.1666666667 21.0 0 1.78509648
17 55.4 67.1666666667 -11.7666666667 70.525 27.0 0 0.814110619998
18 53.0 68.4285714286 -15.4285714286 82.1142857143 55.0 1 0.187033319999
19 48.8333333333 64.0 -15.1666666667 76.8 57.0 1 0.222919079999
20 48.8333333333 64.0 -15.1666666667 70.4 44.0 1 0.256811989995
21 51.9 63.0 -11.1 75.6 46.0 1 0.213997319999
22 48.8333333333 64.0 -15.1666666667 76.8 57.0 1 0.213599350001
23 55.4 67.1666666667 -11.7666666667 73.8833333334 33.0 1 0.274135179996
24 53.0 68.4285714286 -15.4285714286 65.0071428572 23.0 1 0.485973169998
25 48.8333333333 64.0 -15.1666666667 76.8 57.0 1 0.245326799999
26 53.0 68.4285714286 -15.4285714286 54.7428571429 3.0 1 0.385512299996
27 53.0 68.4285714286 -15.4285714286 65.0071428572 23.0 1 0.273579819997
28 51.9 63.0 -11.1 66.15 27.0 1 0.233460239997
29 48.8333333333 64.0 -15.1666666667 64.0 31.0 1 0.383522359996
30 55.4 67.1666666667 -11.7666666667 60.45 9.0 1 0.59027253
31 53.0 68.4285714286 -15.4285714286 68.4285714286 29.0 0 0.356948049997
32 55.4 67.1666666667 -11.7666666667 63.8083333334 15.0 1 0.476926619998
33 51.9 63.0 -11.1 63.0 21.0 1 0.476556040001
34 55.4 67.1666666667 -11.7666666667 60.45 9.0 1 0.273532700001
35 48.8333333333 64.0 -15.1666666667 70.4 44.0 1 0.299312479998
36 51.9 63.0 -11.1 56.7 9.0 1 0.27538512
37 48.8333333333 64.0 -15.1666666667 57.6 18.0 1 0.21368216
38 48.8333333333 64.0 -15.1666666667 76.8 57.0 1 0.226423649998
39 48.8333333333 64.0 -15.1666666667 51.2 5.0 1 0.207560769999
40 55.4 67.1666666667 -11.7666666667 60.45 9.0 1 0.223744439998
41 55.4 67.1666666667 -11.7666666667 70.525 27.0 1 0.286543319999
42 51.9 63.0 -11.1 69.3 34.0 1 0.258387899998
43 53.0 68.4285714286 -15.4285714286 82.1142857143 55.0 1 0.237954979999
44 48.8333333333 64.0 -15.1666666667 76.8 57.0 1 0.23465812
45 55.4 67.1666666667 -11.7666666667 80.6 45.0 1 0.231788109999
46 53.0 68.4285714286 -15.4285714286 65.0071428572 23.0 1 0.354421729997
47 53.0 68.4285714286 -15.4285714286 68.4285714286 29.0 0 0.814458359997
48 51.9 63.0 -11.1 66.15 27.0 1 0.681487779999
49 55.4 67.1666666667 -11.7666666667 67.1666666667 21.0 0 0.356957229997
50 48.8333333333 64.0 -15.1666666667 57.6 18.0 1 0.451589659999
51 55.4 67.1666666667 -11.7666666667 67.1666666667 21.0 0 0.318020769999
52 53.0 68.4285714286 -15.4285714286 75.2714285715 42.0 1 0.710796889998
53 55.4 67.1666666667 -11.7666666667 67.1666666667 21.0 0 0.381489239997
54 53.0 68.4285714286 -15.4285714286 82.1142857143 55.0 1 0.339512570001
55 51.9 63.0 -11.1 59.85 15.0 1 0.369620329999
56 51.9 63.0 -11.1 50.4 -3.0 1 0.308055979996
57 55.4 67.1666666667 -11.7666666667 70.525 27.0 0 0.352993579996
58 55.4 67.1666666667 -11.7666666667 73.8833333334 33.0 1 0.393312519998
59 51.9 63.0 -11.1 66.15 27.0 0 0.457753309998
60 53.0 68.4285714286 -15.4285714286 65.0071428572 23.0 1 0.382776609997
61 55.4 67.1666666667 -11.7666666667 63.8083333334 15.0 1 0.476310529997
62 53.0 68.4285714286 -15.4285714286 61.5857142857 16.0 1 0.262804819999
63 48.8333333333 64.0 -15.1666666667 70.4 44.0 1 0.262997260001
64 48.8333333333 64.0 -15.1666666667 60.8 25.0 1 0.247868139999
65 51.9 63.0 -11.1 59.85 15.0 1 0.174012330001
66 53.0 68.4285714286 -15.4285714286 65.0071428572 23.0 1 0.263828539999
67 53.0 68.4285714286 -15.4285714286 71.85 36.0 0 0.546679079998
68 53.0 68.4285714286 -15.4285714286 68.4285714286 29.0 1 0.500177949998
69 53.0 68.4285714286 -15.4285714286 68.4285714286 29.0 1 0.238204529996
70 48.8333333333 64.0 -15.1666666667 70.4 44.0 1 0.23607857
71 48.8333333333 64.0 -15.1666666667 64.0 31.0 1 0.196172799995
72 55.4 67.1666666667 -11.7666666667 67.1666666667 21.0 0 0.347258549999
73 55.4 67.1666666667 -11.7666666667 53.7333333334 -3.0 1 0.266288119998
74 53.0 68.4285714286 -15.4285714286 82.1142857143 55.0 1 0.316379279997
75 51.9 63.0 -11.1 50.4 -3.0 1 0.203662179996
76 53.0 68.4285714286 -15.4285714286 82.1142857143 55.0 1 0.229625759996
77 51.9 63.0 -11.1 66.15 27.0 1 0.189635069997
78 55.4 67.1666666667 -11.7666666667 60.45 9.0 1 0.189401319996
79 48.8333333333 64.0 -15.1666666667 64.0 31.0 1 0.266181790001
80 51.9 63.0 -11.1 50.4 -3.0 1 0.17031682
81 51.9 63.0 -11.1 56.7 9.0 1 0.154752659997
82 48.8333333333 64.0 -15.1666666667 70.4 44.0 1 0.224468209999
83 48.8333333333 64.0 -15.1666666667 57.6 18.0 1 0.189028459998
84 48.8333333333 64.0 -15.1666666667 70.4 44.0 1 0.255855709998
85 55.4 67.1666666667 -11.7666666667 67.1666666667 21.0 1 0.246291139996
86 48.8333333333 64.0 -15.1666666667 64.0 31.0 0 0.356147250001
87 55.4 67.1666666667 -11.7666666667 73.8833333334 33.0 1 0.769549399996
88 55.4 67.1666666667 -11.7666666667 80.6 45.0 1 0.310814329998
89 51.9 63.0 -11.1 69.3 34.0 1 0.405028419998
90 51.9 63.0 -11.1 69.3 34.0 1 0.348955079997
91 48.8333333333 64.0 -15.1666666667 67.2 38.0 0 0.68853182
92 48.8333333333 64.0 -15.1666666667 67.2 38.0 1 0.531307239999
93 51.9 63.0 -11.1 56.7 9.0 1 0.287875469996
94 51.9 63.0 -11.1 69.3 34.0 1 0.274078530001
95 51.9 63.0 -11.1 75.6 46.0 1 0.267497950001
96 51.9 63.0 -11.1 69.3 34.0 1 0.260388639999
97 55.4 67.1666666667 -11.7666666667 70.525 27.0 1 0.514446779998
98 55.4 67.1666666667 -11.7666666667 73.8833333334 33.0 1 0.597204429996
99 55.4 67.1666666667 -11.7666666667 73.8833333334 33.0 1 0.217375439996
100 48.8333333333 64.0 -15.1666666667 64.0 31.0 1 0.468370699997
101 51.9 63.0 -11.1 59.85 15.0 1 0.382271349998
102 53.0 68.4285714286 -15.4285714286 54.7428571429 3.0 1 0.416499299998
103 51.9 63.0 -11.1 50.4 -3.0 1 0.262349889996
104 55.4 67.1666666667 -11.7666666667 80.6 45.0 1 0.285468620001
105 51.9 63.0 -11.1 50.4 -3.0 1 0.250967709999
106 51.9 63.0 -11.1 63.0 21.0 0 0.451756169998
107 53.0 68.4285714286 -15.4285714286 65.0071428572 23.0 1 0.828774419999
108 53.0 68.4285714286 -15.4285714286 71.85 36.0 1 0.555667289998
109 51.9 63.0 -11.1 63.0 21.0 1 0.383564509997
110 51.9 63.0 -11.1 66.15 27.0 1 0.375155689999
111 51.9 63.0 -11.1 50.4 -3.0 1 0.297406079997
112 51.9 63.0 -11.1 63.0 21.0 0 0.372934480001
113 51.9 63.0 -11.1 66.15 27.0 1 0.521963859999
114 53.0 68.4285714286 -15.4285714286 82.1142857143 55.0 1 0.308263200001
115 51.9 63.0 -11.1 50.4 -3.0 1 0.252308469997
116 48.8333333333 64.0 -15.1666666667 76.8 57.0 1 0.379083299998
117 55.4 67.1666666667 -11.7666666667 60.45 9.0 1 0.359909839997
118 48.8333333333 64.0 -15.1666666667 64.0 31.0 1 0.741594489999
119 53.0 68.4285714286 -15.4285714286 75.2714285715 42.0 1 0.459543919998
120 48.8333333333 64.0 -15.1666666667 67.2 38.0 1 0.368759549998
121 55.4 67.1666666667 -11.7666666667 63.8083333334 15.0 1 0.38983258
122 48.8333333333 64.0 -15.1666666667 70.4 44.0 1 0.259896529999
123 53.0 68.4285714286 -15.4285714286 75.2714285715 42.0 1 0.607940369999
124 48.8333333333 64.0 -15.1666666667 60.8 25.0 1 0.385355199996
125 55.4 67.1666666667 -11.7666666667 60.45 9.0 1 0.644346009998
126 48.8333333333 64.0 -15.1666666667 76.8 57.0 1 0.240374429999
127 51.9 63.0 -11.1 69.3 34.0 1 0.27151708
128 51.9 63.0 -11.1 50.4 -3.0 1 0.214088180001
129 55.4 67.1666666667 -11.7666666667 73.8833333334 33.0 1 0.304902179996
130 51.9 63.0 -11.1 63.0 21.0 1 0.341673669998
131 48.8333333333 64.0 -15.1666666667 57.6 18.0 1 0.235651079998
132 51.9 63.0 -11.1 59.85 15.0 1 0.218219509996
133 53.0 68.4285714286 -15.4285714286 54.7428571429 3.0 1 0.224628
134 55.4 67.1666666667 -11.7666666667 53.7333333334 -3.0 1 0.295916209998
135 55.4 67.1666666667 -11.7666666667 63.8083333334 15.0 1 0.308448559997
136 48.8333333333 64.0 -15.1666666667 64.0 31.0 1 0.297724259995
137 53.0 68.4285714286 -15.4285714286 61.5857142857 16.0 1 0.179560239998
138 55.4 67.1666666667 -11.7666666667 80.6 45.0 1 0.515187219997
139 55.4 67.1666666667 -11.7666666667 53.7333333334 -3.0 1 0.18736408
140 55.4 67.1666666667 -11.7666666667 63.8083333334 15.0 0 0.574420149998
141 53.0 68.4285714286 -15.4285714286 54.7428571429 3.0 1 0.183200150001
142 51.9 63.0 -11.1 56.7 9.0 1 0.416438929999
143 51.9 63.0 -11.1 56.7 9.0 1 0.474854549997
144 55.4 67.1666666667 -11.7666666667 63.8083333334 15.0 0 0.361454959999
145 55.4 67.1666666667 -11.7666666667 67.1666666667 21.0 0 0.285352789997
146 51.9 63.0 -11.1 59.85 15.0 1 0.419414549997
147 53.0 68.4285714286 -15.4285714286 75.2714285715 42.0 0 0.272061259999
148 48.8333333333 64.0 -15.1666666667 51.2 5.0 1 1.13943597
149 53.0 68.4285714286 -15.4285714286 75.2714285715 42.0 0 0.65482362
150 53.0 68.4285714286 -15.4285714286 71.85 36.0 1 0.402970749998
151 48.8333333333 64.0 -15.1666666667 60.8 25.0 1 0.398276489999
152 53.0 68.4285714286 -15.4285714286 82.1142857143 55.0 1 0.353558439998
153 48.8333333333 64.0 -15.1666666667 51.2 5.0 1 0.43947415
154 55.4 67.1666666667 -11.7666666667 73.8833333334 33.0 0 0.321970329998
155 48.8333333333 64.0 -15.1666666667 70.4 44.0 1 0.627167979997
156 53.0 68.4285714286 -15.4285714286 68.4285714286 29.0 0 0.436177999996
157 48.8333333333 64.0 -15.1666666667 57.6 18.0 0 1.10128525
158 51.9 63.0 -11.1 63.0 21.0 0 0.29334683
159 48.8333333333 64.0 -15.1666666667 76.8 57.0 1 0.221349159998
160 55.4 67.1666666667 -11.7666666667 63.8083333334 15.0 1 1.07163675
161 53.0 68.4285714286 -15.4285714286 82.1142857143 55.0 1 0.255203119999
162 51.9 63.0 -11.1 75.6 46.0 1 0.276297729997
163 48.8333333333 64.0 -15.1666666667 70.4 44.0 1 0.434118810001
164 55.4 67.1666666667 -11.7666666667 60.45 9.0 1 0.369838709998
165 55.4 67.1666666667 -11.7666666667 67.1666666667 21.0 0 0.369499389999
166 53.0 68.4285714286 -15.4285714286 68.4285714286 29.0 0 0.437852089995
167 48.8333333333 64.0 -15.1666666667 70.4 44.0 1 0.319635119999
168 55.4 67.1666666667 -11.7666666667 60.45 9.0 0 1.69028821
169 51.9 63.0 -11.1 75.6 46.0 1 0.223717199999
170 55.4 67.1666666667 -11.7666666667 70.525 27.0 0 0.303634569998
171 55.4 67.1666666667 -11.7666666667 70.525 27.0 0 0.31677171
172 48.8333333333 64.0 -15.1666666667 51.2 5.0 1 0.368556239999
173 55.4 67.1666666667 -11.7666666667 63.8083333334 15.0 1 0.660041939998
174 53.0 68.4285714286 -15.4285714286 65.0071428572 23.0 0 0.380306289997
175 48.8333333333 64.0 -15.1666666667 76.8 57.0 1 0.299397839997
176 51.9 63.0 -11.1 50.4 -3.0 1 0.624221009999
177 55.4 67.1666666667 -11.7666666667 80.6 45.0 1 0.344671899995
178 48.8333333333 64.0 -15.1666666667 60.8 25.0 1 0.282532439996
179 53.0 68.4285714286 -15.4285714286 75.2714285715 42.0 0 0.235091429997
180 53.0 68.4285714286 -15.4285714286 82.1142857143 55.0 1 0.231816790001
181 53.0 68.4285714286 -15.4285714286 71.85 36.0 0 0.195689249998
182 53.0 68.4285714286 -15.4285714286 82.1142857143 55.0 1 0.248575609996
183 53.0 68.4285714286 -15.4285714286 68.4285714286 29.0 0 0.391123439997
184 48.8333333333 64.0 -15.1666666667 60.8 25.0 0 0.392568489999
185 48.8333333333 64.0 -15.1666666667 51.2 5.0 1 0.657064409996
186 55.4 67.1666666667 -11.7666666667 73.8833333334 33.0 1 0.476852419997
187 55.4 67.1666666667 -11.7666666667 53.7333333334 -3.0 1 0.265065769996
188 55.4 67.1666666667 -11.7666666667 60.45 9.0 1 0.340125499999
189 55.4 67.1666666667 -11.7666666667 70.525 27.0 0 0.278721799998
190 48.8333333333 64.0 -15.1666666667 57.6 18.0 1 0.513735489996
191 51.9 63.0 -11.1 66.15 27.0 0 0.250063539999
192 51.9 63.0 -11.1 63.0 21.0 0 0.281674429996
193 53.0 68.4285714286 -15.4285714286 71.85 36.0 0 0.23531887
194 51.9 63.0 -11.1 75.6 46.0 1 0.439810979999
195 55.4 67.1666666667 -11.7666666667 60.45 9.0 1 0.285194689997
196 48.8333333333 64.0 -15.1666666667 70.4 44.0 1 0.431810449998
197 48.8333333333 64.0 -15.1666666667 57.6 18.0 0 0.312021649996
198 51.9 63.0 -11.1 63.0 21.0 0 0.256441759997
199 55.4 67.1666666667 -11.7666666667 60.45 9.0 0 0.516038889997
200 53.0 68.4285714286 -15.4285714286 68.4285714286 29.0 0 0.244142089996
201 53.0 68.4285714286 -15.4285714286 61.5857142857 16.0 1 0.42861463
202 48.8333333333 64.0 -15.1666666667 60.8 25.0 0 0.491640709995
203 55.4 67.1666666667 -11.7666666667 53.7333333334 -3.0 1 0.282743109998
204 53.0 68.4285714286 -15.4285714286 82.1142857143 55.0 1 0.589288079998
205 53.0 68.4285714286 -15.4285714286 65.0071428572 23.0 0 0.374987929998
206 55.4 67.1666666667 -11.7666666667 67.1666666667 21.0 0 0.223485799997
207 48.8333333333 64.0 -15.1666666667 64.0 31.0 0 0.199977209995
208 51.9 63.0 -11.1 63.0 21.0 0 0.268452319997
209 51.9 63.0 -11.1 59.85 15.0 1 1.3977386
210 48.8333333333 64.0 -15.1666666667 70.4 44.0 0 0.395223649997
211 48.8333333333 64.0 -15.1666666667 60.8 25.0 1 0.311033040001
212 53.0 68.4285714286 -15.4285714286 68.4285714286 29.0 0 0.310023939997
213 53.0 68.4285714286 -15.4285714286 65.0071428572 23.0 0 0.193426979997
214 55.4 67.1666666667 -11.7666666667 80.6 45.0 1 0.314840809999
215 53.0 68.4285714286 -15.4285714286 54.7428571429 3.0 1 0.307857189997
216 53.0 68.4285714286 -15.4285714286 61.5857142857 16.0 1 0.290146869997
217 48.8333333333 64.0 -15.1666666667 64.0 31.0 0 0.255884739996
218 51.9 63.0 -11.1 59.85 15.0 1 0.313338020002
219 51.9 63.0 -11.1 56.7 9.0 1 0.360784039996
220 53.0 68.4285714286 -15.4285714286 75.2714285715 42.0 0 0.355693220001
221 51.9 63.0 -11.1 75.6 46.0 1 0.398337099996
222 51.9 63.0 -11.1 66.15 27.0 0 0.931529299996
223 51.9 63.0 -11.1 69.3 34.0 1 0.266119429998
224 51.9 63.0 -11.1 69.3 34.0 1 0.399283099996
225 55.4 67.1666666667 -11.7666666667 73.8833333334 33.0 1 0.2469026
226 48.8333333333 64.0 -15.1666666667 67.2 38.0 1 0.595229899998
227 53.0 68.4285714286 -15.4285714286 82.1142857143 55.0 1 0.280193079998
228 53.0 68.4285714286 -15.4285714286 54.7428571429 3.0 1 0.241357089999
229 51.9 63.0 -11.1 66.15 27.0 1 0.401966099998
230 48.8333333333 64.0 -15.1666666667 60.8 25.0 1 0.277733289997
231 55.4 67.1666666667 -11.7666666667 80.6 45.0 1 0.411244359999
232 51.9 63.0 -11.1 75.6 46.0 1 0.270609169998
233 51.9 63.0 -11.1 66.15 27.0 0 0.333831229997
234 48.8333333333 64.0 -15.1666666667 51.2 5.0 1 0.264316829998
235 51.9 63.0 -11.1 66.15 27.0 1 0.481514039999
236 48.8333333333 64.0 -15.1666666667 57.6 18.0 1 0.486582749996
237 48.8333333333 64.0 -15.1666666667 70.4 44.0 1 0.334923099999
238 53.0 68.4285714286 -15.4285714286 61.5857142857 16.0 1 0.814721389997
239 55.4 67.1666666667 -11.7666666667 60.45 9.0 1 0.39204363
240 48.8333333333 64.0 -15.1666666667 51.2 5.0 1 0.607724229998
241 51.9 63.0 -11.1 66.15 27.0 1 0.461458349997
242 51.9 63.0 -11.1 56.7 9.0 1 1.35632906
243 53.0 68.4285714286 -15.4285714286 82.1142857143 55.0 1 0.810029209999
244 51.9 63.0 -11.1 59.85 15.0 1 0.352096579998
245 48.8333333333 64.0 -15.1666666667 70.4 44.0 1 0.390830589997
246 51.9 63.0 -11.1 63.0 21.0 0 0.394020989999
247 51.9 63.0 -11.1 75.6 46.0 1 0.29591579
248 51.9 63.0 -11.1 63.0 21.0 0 0.309591879999
249 53.0 68.4285714286 -15.4285714286 71.85 36.0 1 0.348097549999
250 55.4 67.1666666667 -11.7666666667 80.6 45.0 1 0.2626494
251 53.0 68.4285714286 -15.4285714286 71.85 36.0 1 0.295312259997
252 55.4 67.1666666667 -11.7666666667 80.6 45.0 1 0.204444939998
253 55.4 67.1666666667 -11.7666666667 73.8833333334 33.0 1 0.279729029997
254 53.0 68.4285714286 -15.4285714286 61.5857142857 16.0 1 0.176114639999
255 48.8333333333 64.0 -15.1666666667 51.2 5.0 1 0.155447919999
256 55.4 67.1666666667 -11.7666666667 70.525 27.0 0 0.30957216
257 53.0 68.4285714286 -15.4285714286 61.5857142857 16.0 1 0.141543129997
258 53.0 68.4285714286 -15.4285714286 65.0071428572 23.0 0 0.230620849998
259 48.8333333333 64.0 -15.1666666667 57.6 18.0 1 0.154001999996
260 51.9 63.0 -11.1 56.7 9.0 1 0.179077459998
261 48.8333333333 64.0 -15.1666666667 76.8 57.0 1 0.225483850001
262 53.0 68.4285714286 -15.4285714286 75.2714285715 42.0 0 0.269374119998
263 53.0 68.4285714286 -15.4285714286 71.85 36.0 0 0.186008659995
264 48.8333333333 64.0 -15.1666666667 67.2 38.0 0 0.193270279997
265 51.9 63.0 -11.1 75.6 46.0 1 0.316329270001
266 53.0 68.4285714286 -15.4285714286 54.7428571429 3.0 1 0.222881869999
267 55.4 67.1666666667 -11.7666666667 53.7333333334 -3.0 1 0.173451989998
268 55.4 67.1666666667 -11.7666666667 70.525 27.0 1 0.241095450001
269 51.9 63.0 -11.1 69.3 34.0 1 0.333139089998
270 55.4 67.1666666667 -11.7666666667 60.45 9.0 1 0.424637029999
271 53.0 68.4285714286 -15.4285714286 82.1142857143 55.0 1 0.210241359997
272 55.4 67.1666666667 -11.7666666667 80.6 45.0 1 0.33871013
273 53.0 68.4285714286 -15.4285714286 71.85 36.0 1 0.326224629996
274 53.0 68.4285714286 -15.4285714286 54.7428571429 3.0 1 0.170125179997
275 53.0 68.4285714286 -15.4285714286 75.2714285715 42.0 1 0.273753659996
276 51.9 63.0 -11.1 59.85 15.0 0 0.693090809997
277 48.8333333333 64.0 -15.1666666667 51.2 5.0 1 0.498564910002
278 48.8333333333 64.0 -15.1666666667 57.6 18.0 1 0.203727619995
279 48.8333333333 64.0 -15.1666666667 51.2 5.0 1 0.505766890001
280 51.9 63.0 -11.1 75.6 46.0 1 0.3024467
281 53.0 68.4285714286 -15.4285714286 75.2714285715 42.0 1 0.259818269999
282 53.0 68.4285714286 -15.4285714286 61.5857142857 16.0 1 0.259685789999
283 48.8333333333 64.0 -15.1666666667 70.4 44.0 0 0.257525779998
284 53.0 68.4285714286 -15.4285714286 71.85 36.0 0 0.27671468
285 53.0 68.4285714286 -15.4285714286 54.7428571429 3.0 1 0.19468493
286 51.9 63.0 -11.1 59.85 15.0 1 0.233031469998
287 48.8333333333 64.0 -15.1666666667 64.0 31.0 0 0.213644189997
288 51.9 63.0 -11.1 50.4 -3.0 1 0.129441539997
289 53.0 68.4285714286 -15.4285714286 75.2714285715 42.0 1 0.506201849999
290 48.8333333333 64.0 -15.1666666667 60.8 25.0 1 0.650929719999
291 51.9 63.0 -11.1 59.85 15.0 1 0.25352894
292 48.8333333333 64.0 -15.1666666667 67.2 38.0 1 0.674679010001
293 55.4 67.1666666667 -11.7666666667 53.7333333334 -3.0 1 0.175873119999
294 55.4 67.1666666667 -11.7666666667 70.525 27.0 0 0.220090309998
295 53.0 68.4285714286 -15.4285714286 61.5857142857 16.0 1 0.150597489999
296 48.8333333333 64.0 -15.1666666667 64.0 31.0 0 0.220961979998
297 55.4 67.1666666667 -11.7666666667 53.7333333334 -3.0 1 0.151904909999
298 55.4 67.1666666667 -11.7666666667 67.1666666667 21.0 0 0.209381419998
299 53.0 68.4285714286 -15.4285714286 54.7428571429 3.0 1 0.130793259996
300 51.9 63.0 -11.1 63.0 21.0 0 0.366118739996
301 48.8333333333 64.0 -15.1666666667 60.8 25.0 1 0.349868009998
302 48.8333333333 64.0 -15.1666666667 57.6 18.0 1 0.325927079997
303 51.9 63.0 -11.1 59.85 15.0 1 0.111967109999
304 55.4 67.1666666667 -11.7666666667 80.6 45.0 1 0.221524779998
305 48.8333333333 64.0 -15.1666666667 51.2 5.0 1 0.168586499996
306 51.9 63.0 -11.1 66.15 27.0 1 0.374602020001
307 53.0 68.4285714286 -15.4285714286 65.0071428572 23.0 1 0.361258579997
308 53.0 68.4285714286 -15.4285714286 82.1142857143 55.0 1 0.296552199998
309 55.4 67.1666666667 -11.7666666667 73.8833333334 33.0 0 0.310470329998
310 55.4 67.1666666667 -11.7666666667 60.45 9.0 1 0.178187179998
311 55.4 67.1666666667 -11.7666666667 70.525 27.0 0 0.267384129998
312 48.8333333333 64.0 -15.1666666667 64.0 31.0 0 0.26648097
313 48.8333333333 64.0 -15.1666666667 67.2 38.0 0 0.293765099999
314 51.9 63.0 -11.1 66.15 27.0 0 0.566754819996
315 55.4 67.1666666667 -11.7666666667 70.525 27.0 0 0.32078047
316 55.4 67.1666666667 -11.7666666667 80.6 45.0 1 0.371631530001
317 55.4 67.1666666667 -11.7666666667 67.1666666667 21.0 0 0.32073933
318 53.0 68.4285714286 -15.4285714286 61.5857142857 16.0 1 0.187618489996
319 48.8333333333 64.0 -15.1666666667 51.2 5.0 1 0.290963039999
320 55.4 67.1666666667 -11.7666666667 63.8083333334 15.0 1 0.425520519999
321 55.4 67.1666666667 -11.7666666667 63.8083333334 15.0 0 0.33744626
322 51.9 63.0 -11.1 69.3 34.0 1 0.28209139
323 51.9 63.0 -11.1 66.15 27.0 1 0.798868159996
324 55.4 67.1666666667 -11.7666666667 53.7333333334 -3.0 1 0.28751233
325 48.8333333333 64.0 -15.1666666667 76.8 57.0 1 0.28166868
326 55.4 67.1666666667 -11.7666666667 67.1666666667 21.0 0 0.346100759998
327 48.8333333333 64.0 -15.1666666667 67.2 38.0 0 0.396423849998
328 55.4 67.1666666667 -11.7666666667 73.8833333334 33.0 1 0.254976239998
329 51.9 63.0 -11.1 50.4 -3.0 1 0.220334629998
330 51.9 63.0 -11.1 59.85 15.0 1 0.203100309998
331 48.8333333333 64.0 -15.1666666667 67.2 38.0 1 0.306895879996
332 55.4 67.1666666667 -11.7666666667 63.8083333334 15.0 0 0.5308363
333 51.9 63.0 -11.1 63.0 21.0 0 0.721049909997
334 53.0 68.4285714286 -15.4285714286 71.85 36.0 1 0.230251049998
335 53.0 68.4285714286 -15.4285714286 54.7428571429 3.0 1 0.204484859998
336 53.0 68.4285714286 -15.4285714286 68.4285714286 29.0 0 0.471104329998
337 48.8333333333 64.0 -15.1666666667 57.6 18.0 1 0.13520827
338 53.0 68.4285714286 -15.4285714286 71.85 36.0 0 0.361725549999
339 55.4 67.1666666667 -11.7666666667 60.45 9.0 1 0.237131759997
340 53.0 68.4285714286 -15.4285714286 65.0071428572 23.0 0 0.386332939997
341 53.0 68.4285714286 -15.4285714286 75.2714285715 42.0 1 0.601574689998
342 55.4 67.1666666667 -11.7666666667 80.6 45.0 1 0.30843465
343 51.9 63.0 -11.1 66.15 27.0 1 0.368026169996
344 48.8333333333 64.0 -15.1666666667 76.8 57.0 1 0.189506480001
345 48.8333333333 64.0 -15.1666666667 57.6 18.0 1 0.197459259998
346 51.9 63.0 -11.1 59.85 15.0 1 0.287039729996
347 53.0 68.4285714286 -15.4285714286 61.5857142857 16.0 1 0.155513269998
348 51.9 63.0 -11.1 63.0 21.0 1 0.443055759999
349 53.0 68.4285714286 -15.4285714286 82.1142857143 55.0 1 0.189272619999
350 48.8333333333 64.0 -15.1666666667 64.0 31.0 1 0.377400349997
351 51.9 63.0 -11.1 56.7 9.0 1 0.199935179997
352 48.8333333333 64.0 -15.1666666667 70.4 44.0 1 0.233980019999
353 53.0 68.4285714286 -15.4285714286 54.7428571429 3.0 1 0.217599169999
354 51.9 63.0 -11.1 56.7 9.0 1 0.187123749998
355 51.9 63.0 -11.1 69.3 34.0 1 0.129758319999
356 55.4 67.1666666667 -11.7666666667 73.8833333334 33.0 1 0.397799399998
357 51.9 63.0 -11.1 69.3 34.0 1 0.260970059997
358 53.0 68.4285714286 -15.4285714286 71.85 36.0 1 0.234269529996
359 53.0 68.4285714286 -15.4285714286 65.0071428572 23.0 1 0.24507207
360 53.0 68.4285714286 -15.4285714286 75.2714285715 42.0 1 0.209682019999
361 51.9 63.0 -11.1 63.0 21.0 1 0.578498689996
362 48.8333333333 64.0 -15.1666666667 67.2 38.0 1 0.270470909996
363 51.9 63.0 -11.1 50.4 -3.0 1 0.238948569997
364 55.4 67.1666666667 -11.7666666667 67.1666666667 21.0 1 0.338707899999
365 48.8333333333 64.0 -15.1666666667 60.8 25.0 1 0.295303859995
366 48.8333333333 64.0 -15.1666666667 51.2 5.0 1 0.21854098
367 55.4 67.1666666667 -11.7666666667 67.1666666667 21.0 1 0.384582229999
368 55.4 67.1666666667 -11.7666666667 63.8083333334 15.0 1 0.414785879999
369 55.4 67.1666666667 -11.7666666667 63.8083333334 15.0 1 0.60777952
370 55.4 67.1666666667 -11.7666666667 73.8833333334 33.0 1 0.259898879998
371 51.9 63.0 -11.1 75.6 46.0 1 0.242149089998
372 48.8333333333 64.0 -15.1666666667 67.2 38.0 1 0.312718269997
373 48.8333333333 64.0 -15.1666666667 67.2 38.0 1 0.245989970001
374 55.4 67.1666666667 -11.7666666667 80.6 45.0 1 0.237412969997
375 55.4 67.1666666667 -11.7666666667 70.525 27.0 1 0.26811352
376 53.0 68.4285714286 -15.4285714286 75.2714285715 42.0 1 0.223409839997
377 48.8333333333 64.0 -15.1666666667 51.2 5.0 1 0.248814809998
378 51.9 63.0 -11.1 66.15 27.0 1 0.230133969999
379 55.4 67.1666666667 -11.7666666667 53.7333333334 -3.0 1 0.20387012
380 51.9 63.0 -11.1 50.4 -3.0 1 0.219320039996
381 55.4 67.1666666667 -11.7666666667 80.6 45.0 1 0.276409019996
382 51.9 63.0 -11.1 56.7 9.0 1 0.304400689998
383 55.4 67.1666666667 -11.7666666667 70.525 27.0 1 0.188979619998
384 53.0 68.4285714286 -15.4285714286 54.7428571429 3.0 1 0.171443699997
385 51.9 63.0 -11.1 50.4 -3.0 1 0.12457616
386 55.4 67.1666666667 -11.7666666667 67.1666666667 21.0 0 0.41441741
387 53.0 68.4285714286 -15.4285714286 82.1142857143 55.0 1 0.235404389998
388 53.0 68.4285714286 -15.4285714286 75.2714285715 42.0 1 0.329229029998
389 53.0 68.4285714286 -15.4285714286 71.85 36.0 1 0.278969879997
390 48.8333333333 64.0 -15.1666666667 64.0 31.0 1 0.276302379996
391 53.0 68.4285714286 -15.4285714286 75.2714285715 42.0 0 1.1905029
392 48.8333333333 64.0 -15.1666666667 57.6 18.0 1 0.265132979996
393 55.4 67.1666666667 -11.7666666667 73.8833333334 33.0 0 0.740228369999
394 48.8333333333 64.0 -15.1666666667 67.2 38.0 1 0.619292389998
395 53.0 68.4285714286 -15.4285714286 71.85 36.0 0 0.603417859998
396 51.9 63.0 -11.1 75.6 46.0 1 0.264805259998
397 48.8333333333 64.0 -15.1666666667 76.8 57.0 1 0.252222309999
398 48.8333333333 64.0 -15.1666666667 76.8 57.0 1 0.200866969997
399 51.9 63.0 -11.1 69.3 34.0 1 0.220370579998
400 53.0 68.4285714286 -15.4285714286 82.1142857143 55.0 1 0.274508009999
401 53.0 68.4285714286 -15.4285714286 68.4285714286 29.0 0 0.45520357
402 51.9 63.0 -11.1 75.6 46.0 1 0.24007149
403 48.8333333333 64.0 -15.1666666667 64.0 31.0 0 0.57285945
404 55.4 67.1666666667 -11.7666666667 73.8833333334 33.0 0 0.583329289999
405 53.0 68.4285714286 -15.4285714286 71.85 36.0 0 0.55689403
406 53.0 68.4285714286 -15.4285714286 68.4285714286 29.0 0 1.53685445
407 51.9 63.0 -11.1 50.4 -3.0 1 0.212624009997
408 53.0 68.4285714286 -15.4285714286 65.0071428572 23.0 0 0.400583369996
409 51.9 63.0 -11.1 75.6 46.0 1 0.19272445
410 51.9 63.0 -11.1 66.15 27.0 1 0.702230789997
411 51.9 63.0 -11.1 66.15 27.0 1 0.257625869996
412 53.0 68.4285714286 -15.4285714286 65.0071428572 23.0 0 0.34039854
413 48.8333333333 64.0 -15.1666666667 51.2 5.0 1 0.224300279999
414 53.0 68.4285714286 -15.4285714286 61.5857142857 16.0 1 0.153906789998
415 48.8333333333 64.0 -15.1666666667 67.2 38.0 0 0.307335419999
416 55.4 67.1666666667 -11.7666666667 80.6 45.0 1 0.17917693
417 53.0 68.4285714286 -15.4285714286 54.7428571429 3.0 1 0.250419609998
418 48.8333333333 64.0 -15.1666666667 60.8 25.0 1 0.188891799997
419 55.4 67.1666666667 -11.7666666667 63.8083333334 15.0 0 0.207067609997
420 55.4 67.1666666667 -11.7666666667 53.7333333334 -3.0 1 0.163018089999
421 51.9 63.0 -11.1 75.6 46.0 1 0.515862830001
422 48.8333333333 64.0 -15.1666666667 64.0 31.0 0 0.291863129998
423 51.9 63.0 -11.1 63.0 21.0 0 0.393333699998
424 55.4 67.1666666667 -11.7666666667 63.8083333334 15.0 0 0.258932179997
425 48.8333333333 64.0 -15.1666666667 57.6 18.0 1 0.179182779997
426 51.9 63.0 -11.1 56.7 9.0 1 0.343830079997
427 48.8333333333 64.0 -15.1666666667 57.6 18.0 1 0.160628689999
428 55.4 67.1666666667 -11.7666666667 70.525 27.0 0 0.215715379996
429 53.0 68.4285714286 -15.4285714286 61.5857142857 16.0 1 0.0606113099966
430 48.8333333333 64.0 -15.1666666667 76.8 57.0 1 0.205226489998
431 48.8333333333 64.0 -15.1666666667 67.2 38.0 1 0.45423051
432 55.4 67.1666666667 -11.7666666667 73.8833333334 33.0 0 0.259504759997
433 51.9 63.0 -11.1 59.85 15.0 1 0.153316749998
434 53.0 68.4285714286 -15.4285714286 68.4285714286 29.0 0 0.252174189998
435 53.0 68.4285714286 -15.4285714286 54.7428571429 3.0 1 0.202369429997
436 53.0 68.4285714286 -15.4285714286 61.5857142857 16.0 1 0.139587619997
437 55.4 67.1666666667 -11.7666666667 53.7333333334 -3.0 1 0.13491818
438 48.8333333333 64.0 -15.1666666667 51.2 5.0 1 0.118221019995
439 55.4 67.1666666667 -11.7666666667 53.7333333334 -3.0 1 0.114303859998
440 53.0 68.4285714286 -15.4285714286 68.4285714286 29.0 0 0.250244840001
441 48.8333333333 64.0 -15.1666666667 76.8 57.0 1 0.25787121
442 55.4 67.1666666667 -11.7666666667 53.7333333334 -3.0 1 0.128874899998
443 55.4 67.1666666667 -11.7666666667 53.7333333334 -3.0 1 0.17904639
444 55.4 67.1666666667 -11.7666666667 63.8083333334 15.0 1 0.172338789998
445 55.4 67.1666666667 -11.7666666667 67.1666666667 21.0 0 0.302925
446 53.0 68.4285714286 -15.4285714286 54.7428571429 3.0 1 0.10025897
447 48.8333333333 64.0 -15.1666666667 60.8 25.0 1 0.106466259997
448 51.9 63.0 -11.1 63.0 21.0 1 0.096924999998
449 51.9 63.0 -11.1 75.6 46.0 1 0.224520569998
450 55.4 67.1666666667 -11.7666666667 63.8083333334 15.0 0 0.23380718
451 55.4 67.1666666667 -11.7666666667 63.8083333334 15.0 0 0.31488591
452 51.9 63.0 -11.1 69.3 34.0 0 0.407627139997
453 55.4 67.1666666667 -11.7666666667 67.1666666667 21.0 0 0.320133829999
454 48.8333333333 64.0 -15.1666666667 51.2 5.0 1 0.152101139996
455 55.4 67.1666666667 -11.7666666667 67.1666666667 21.0 0 0.199729469998
456 51.9 63.0 -11.1 69.3 34.0 0 0.317501249996
457 53.0 68.4285714286 -15.4285714286 54.7428571429 3.0 1 0.18063015
458 55.4 67.1666666667 -11.7666666667 53.7333333334 -3.0 1 0.130060779997
459 48.8333333333 64.0 -15.1666666667 64.0 31.0 0 0.297421020001
460 55.4 67.1666666667 -11.7666666667 60.45 9.0 1 0.22049308
461 51.9 63.0 -11.1 56.7 9.0 1 0.182248900001
462 53.0 68.4285714286 -15.4285714286 65.0071428572 23.0 0 0.294177159998
463 48.8333333333 64.0 -15.1666666667 67.2 38.0 0 0.358101789996
464 51.9 63.0 -11.1 56.7 9.0 1 0.186318789998
465 48.8333333333 64.0 -15.1666666667 70.4 44.0 0 0.327106109999
466 48.8333333333 64.0 -15.1666666667 57.6 18.0 1 0.158580390002
467 48.8333333333 64.0 -15.1666666667 76.8 57.0 1 0.237381109997
468 55.4 67.1666666667 -11.7666666667 60.45 9.0 1 0.153006599998
469 53.0 68.4285714286 -15.4285714286 71.85 36.0 1 0.342944949996
470 53.0 68.4285714286 -15.4285714286 68.4285714286 29.0 0 0.262083959995
471 48.8333333333 64.0 -15.1666666667 67.2 38.0 1 0.142039810002
472 51.9 63.0 -11.1 50.4 -3.0 1 0.15187645
473 51.9 63.0 -11.1 69.3 34.0 1 0.166515949997
474 51.9 63.0 -11.1 59.85 15.0 1 0.105729449999
475 51.9 63.0 -11.1 59.85 15.0 1 0.071647140001
476 53.0 68.4285714286 -15.4285714286 54.7428571429 3.0 1 0.121475049997
477 48.8333333333 64.0 -15.1666666667 57.6 18.0 1 0.0188710599978
478 51.9 63.0 -11.1 56.7 9.0 1 0.129368259997
479 51.9 63.0 -11.1 56.7 9.0 1 0.0720194899986
480 53.0 68.4285714286 -15.4285714286 61.5857142857 16.0 1 0.0930034999983
481 51.9 63.0 -11.1 66.15 27.0 1 0.415775099998
482 51.9 63.0 -11.1 63.0 21.0 1 0.153446559998
483 51.9 63.0 -11.1 50.4 -3.0 1 0.189438129997
484 53.0 68.4285714286 -15.4285714286 75.2714285715 42.0 1 0.185102929998
485 55.4 67.1666666667 -11.7666666667 80.6 45.0 1 0.265710569998
486 55.4 67.1666666667 -11.7666666667 80.6 45.0 1 0.164625919999
487 55.4 67.1666666667 -11.7666666667 70.525 27.0 1 0.172061169997
488 53.0 68.4285714286 -15.4285714286 71.85 36.0 1 0.15541901
489 51.9 63.0 -11.1 56.7 9.0 1 0.144471579995
490 51.9 63.0 -11.1 69.3 34.0 1 0.14224017
491 51.9 63.0 -11.1 59.85 15.0 1 0.168537940001
492 48.8333333333 64.0 -15.1666666667 51.2 5.0 1 0.109831899998
493 55.4 67.1666666667 -11.7666666667 60.45 9.0 1 0.144662479997
494 55.4 67.1666666667 -11.7666666667 67.1666666667 21.0 1 0.181360409999
495 48.8333333333 64.0 -15.1666666667 64.0 31.0 0 0.450805659999
496 55.4 67.1666666667 -11.7666666667 70.525 27.0 1 0.413675589996
497 53.0 68.4285714286 -15.4285714286 65.0071428572 23.0 0 0.253533139999
498 53.0 68.4285714286 -15.4285714286 75.2714285715 42.0 0 0.285857889998
499 48.8333333333 64.0 -15.1666666667 60.8 25.0 1 0.20846768
500 51.9 63.0 -11.1 59.85 15.0 1 0.128052439999
501 48.8333333333 64.0 -15.1666666667 64.0 31.0 0 0.222412089999
502 53.0 68.4285714286 -15.4285714286 54.7428571429 3.0 1 0.166021569999
503 53.0 68.4285714286 -15.4285714286 61.5857142857 16.0 1 0.120214409999
504 55.4 67.1666666667 -11.7666666667 60.45 9.0 1 0.165607919997
505 55.4 67.1666666667 -11.7666666667 53.7333333334 -3.0 1 0.173770559999
506 51.9 63.0 -11.1 69.3 34.0 0 0.453123679996
507 53.0 68.4285714286 -15.4285714286 68.4285714286 29.0 0 0.182819559999
508 53.0 68.4285714286 -15.4285714286 65.0071428572 23.0 0 0.464233089999
509 48.8333333333 64.0 -15.1666666667 76.8 57.0 1 0.313530569998
510 48.8333333333 64.0 -15.1666666667 57.6 18.0 1 0.176837529998
511 55.4 67.1666666667 -11.7666666667 60.45 9.0 1 0.156557209997
512 53.0 68.4285714286 -15.4285714286 54.7428571429 3.0 1 0.153862389998
513 55.4 67.1666666667 -11.7666666667 67.1666666667 21.0 0 0.234163519999
514 51.9 63.0 -11.1 63.0 21.0 0 0.225163429997
515 53.0 68.4285714286 -15.4285714286 82.1142857143 55.0 1 0.286964589999
516 48.8333333333 64.0 -15.1666666667 60.8 25.0 1 0.172742389997
517 55.4 67.1666666667 -11.7666666667 63.8083333334 15.0 0 0.371395819999
518 51.9 63.0 -11.1 56.7 9.0 1 0.156268689996
519 55.4 67.1666666667 -11.7666666667 70.525 27.0 1 0.378085789998
520 51.9 63.0 -11.1 50.4 -3.0 1 0.181044009998
521 55.4 67.1666666667 -11.7666666667 73.8833333334 33.0 1 0.280814719998
522 48.8333333333 64.0 -15.1666666667 64.0 31.0 0 0.298025609998
523 55.4 67.1666666667 -11.7666666667 70.525 27.0 0 0.268336259996
524 48.8333333333 64.0 -15.1666666667 70.4 44.0 0 0.38491176
525 51.9 63.0 -11.1 69.3 34.0 1 0.299872969998
526 48.8333333333 64.0 -15.1666666667 67.2 38.0 1 0.21014653
527 53.0 68.4285714286 -15.4285714286 61.5857142857 16.0 1 0.175088639997
528 53.0 68.4285714286 -15.4285714286 65.0071428572 23.0 0 0.214088169996
529 53.0 68.4285714286 -15.4285714286 68.4285714286 29.0 0 0.269775979999
530 51.9 63.0 -11.1 50.4 -3.0 1 0.14755967
531 55.4 67.1666666667 -11.7666666667 53.7333333334 -3.0 1 0.152585659998
532 51.9 63.0 -11.1 75.6 46.0 1 0.272544970001
533 53.0 68.4285714286 -15.4285714286 68.4285714286 29.0 0 0.275040359997
534 51.9 63.0 -11.1 63.0 21.0 0 0.460138809998
535 48.8333333333 64.0 -15.1666666667 60.8 25.0 1 0.116108539998
536 51.9 63.0 -11.1 50.4 -3.0 1 0.250490119997
537 48.8333333333 64.0 -15.1666666667 67.2 38.0 1 0.267120969998
538 48.8333333333 64.0 -15.1666666667 76.8 57.0 1 0.184622199999
539 48.8333333333 64.0 -15.1666666667 51.2 5.0 1 0.121645309995
540 51.9 63.0 -11.1 56.7 9.0 1 0.214856759998
541 55.4 67.1666666667 -11.7666666667 63.8083333334 15.0 1 0.188448339999
542 51.9 63.0 -11.1 69.3 34.0 1 0.291211069998
543 53.0 68.4285714286 -15.4285714286 71.85 36.0 1 0.242195679999
544 55.4 67.1666666667 -11.7666666667 80.6 45.0 1 0.145547649998
545 55.4 67.1666666667 -11.7666666667 53.7333333334 -3.0 1 0.201424029998
546 48.8333333333 64.0 -15.1666666667 76.8 57.0 1 0.267218469999
547 53.0 68.4285714286 -15.4285714286 61.5857142857 16.0 1 0.155101629996
548 48.8333333333 64.0 -15.1666666667 60.8 25.0 1 0.154225989998
549 53.0 68.4285714286 -15.4285714286 65.0071428572 23.0 1 0.456943950001
550 55.4 67.1666666667 -11.7666666667 73.8833333334 33.0 1 0.225637060001
551 51.9 63.0 -11.1 75.6 46.0 1 0.203794259996
552 48.8333333333 64.0 -15.1666666667 70.4 44.0 1 0.160674559997
553 48.8333333333 64.0 -15.1666666667 57.6 18.0 1 0.158006350001
554 48.8333333333 64.0 -15.1666666667 51.2 5.0 1 0.169890819998
555 55.4 67.1666666667 -11.7666666667 73.8833333334 33.0 1 0.182927749996
556 55.4 67.1666666667 -11.7666666667 53.7333333334 -3.0 1 0.176117619998
557 53.0 68.4285714286 -15.4285714286 68.4285714286 29.0 0 0.584939919998
558 48.8333333333 64.0 -15.1666666667 60.8 25.0 1 0.114754209997
559 48.8333333333 64.0 -15.1666666667 60.8 25.0 1 0.170834769997
560 55.4 67.1666666667 -11.7666666667 80.6 45.0 0 0.314469140001
