Trial LumTarget LumMatch LT-LM LumComp %deviance Choice RT
1 51.9 63.0 -11.1 57.09 -9.0 1 0.703777
2 53.0 68.4285714286 -15.4285714286 55.65 -19.0 1 0.51824696
3 48.8333333333 64.0 -15.1666666667 46.3916666666 -28.0 1 0.93135372
4 48.8333333333 64.0 -15.1666666667 46.3916666666 -28.0 0 0.83758309
5 55.4 67.1666666667 -11.7666666667 49.86 -26.0 0 0.70294737
6 55.4 67.1666666667 -11.7666666667 52.63 -22.0 0 0.59335714
7 55.4 67.1666666667 -11.7666666667 60.94 -9.0 1 0.27460029
8 51.9 63.0 -11.1 41.52 -34.0 1 0.59925684
9 51.9 63.0 -11.1 51.9 -18.0 1 0.3486464
10 53.0 68.4285714286 -15.4285714286 63.6 -7.0 1 0.26752107
11 48.8333333333 64.0 -15.1666666667 39.0666666666 -39.0 0 0.9574589
12 51.9 63.0 -11.1 51.9 -18.0 1 0.34402919
13 55.4 67.1666666667 -11.7666666667 66.48 -1.0 1 0.28539902
14 51.9 63.0 -11.1 49.305 -22.0 0 0.40292533
15 48.8333333333 64.0 -15.1666666667 43.95 -31.0 0 2.37276772
16 48.8333333333 64.0 -15.1666666667 46.3916666666 -28.0 0 0.58376524
17 51.9 63.0 -11.1 54.495 -14.0 1 0.4279678
18 55.4 67.1666666667 -11.7666666667 66.48 -1.0 1 0.48195235
19 51.9 63.0 -11.1 46.71 -26.0 0 0.60300367
20 48.8333333333 64.0 -15.1666666667 53.7166666666 -16.0 1 0.25440535
21 48.8333333333 64.0 -15.1666666667 58.6 -8.0 1 0.20308741
22 51.9 63.0 -11.1 46.71 -26.0 1 0.58103484
23 55.4 67.1666666667 -11.7666666667 49.86 -26.0 1 0.87752982
24 55.4 67.1666666667 -11.7666666667 58.17 -13.0 1 0.23954967
25 53.0 68.4285714286 -15.4285714286 58.3 -15.0 1 0.23991913
26 53.0 68.4285714286 -15.4285714286 47.7 -30.0 0 0.86101346
27 55.4 67.1666666667 -11.7666666667 49.86 -26.0 0 0.57044712
28 53.0 68.4285714286 -15.4285714286 53.0 -23.0 1 0.57254717
29 53.0 68.4285714286 -15.4285714286 58.3 -15.0 1 0.20377853
30 53.0 68.4285714286 -15.4285714286 55.65 -19.0 1 0.28584723
31 53.0 68.4285714286 -15.4285714286 55.65 -19.0 1 0.22426017
32 48.8333333333 64.0 -15.1666666667 51.275 -20.0 1 0.1870931
33 53.0 68.4285714286 -15.4285714286 55.65 -19.0 1 0.26528258
34 48.8333333333 64.0 -15.1666666667 43.95 -31.0 1 0.65009347
35 55.4 67.1666666667 -11.7666666667 52.63 -22.0 0 0.53734711
36 51.9 63.0 -11.1 46.71 -26.0 1 0.31436024
37 53.0 68.4285714286 -15.4285714286 50.35 -26.0 1 0.25217139
38 55.4 67.1666666667 -11.7666666667 52.63 -22.0 0 0.47464441
39 51.9 63.0 -11.1 51.9 -18.0 0 0.28410653
40 53.0 68.4285714286 -15.4285714286 42.4 -38.0 1 0.62997198
41 55.4 67.1666666667 -11.7666666667 44.32 -34.0 1 0.90618736
42 48.8333333333 64.0 -15.1666666667 43.95 -31.0 0 0.49628576
43 51.9 63.0 -11.1 49.305 -22.0 1 0.54390769
44 51.9 63.0 -11.1 51.9 -18.0 0 0.49944865
45 53.0 68.4285714286 -15.4285714286 63.6 -7.0 1 0.18740708
46 48.8333333333 64.0 -15.1666666667 53.7166666666 -16.0 1 0.28296627
47 53.0 68.4285714286 -15.4285714286 42.4 -38.0 1 0.54522519
48 51.9 63.0 -11.1 51.9 -18.0 0 0.30741444
49 55.4 67.1666666667 -11.7666666667 66.48 -1.0 1 0.2210867
50 53.0 68.4285714286 -15.4285714286 63.6 -7.0 1 0.15686024
51 55.4 67.1666666667 -11.7666666667 49.86 -26.0 0 0.41022963
52 53.0 68.4285714286 -15.4285714286 47.7 -30.0 1 0.29885251
53 53.0 68.4285714286 -15.4285714286 53.0 -23.0 0 0.30426163
54 51.9 63.0 -11.1 54.495 -14.0 1 0.30526815
55 51.9 63.0 -11.1 41.52 -34.0 1 0.23123516
56 53.0 68.4285714286 -15.4285714286 55.65 -19.0 1 0.27728918
57 55.4 67.1666666667 -11.7666666667 44.32 -34.0 1 0.4446346
58 51.9 63.0 -11.1 46.71 -26.0 1 0.41037255
59 51.9 63.0 -11.1 62.28 -1.0 1 0.29832978
60 53.0 68.4285714286 -15.4285714286 63.6 -7.0 1 0.22925968
61 51.9 63.0 -11.1 46.71 -26.0 1 0.58681305
62 51.9 63.0 -11.1 51.9 -18.0 1 0.26112554
63 48.8333333333 64.0 -15.1666666667 48.8333333333 -24.0 1 0.19813806
64 51.9 63.0 -11.1 49.305 -22.0 0 0.36154627
65 53.0 68.4285714286 -15.4285714286 53.0 -23.0 1 0.30084935
66 48.8333333333 64.0 -15.1666666667 43.95 -31.0 1 0.54237277
67 48.8333333333 64.0 -15.1666666667 46.3916666666 -28.0 1 0.42258069
68 53.0 68.4285714286 -15.4285714286 63.6 -7.0 1 0.23629457
69 51.9 63.0 -11.1 41.52 -34.0 1 0.21855823
70 51.9 63.0 -11.1 54.495 -14.0 1 0.31333685
71 48.8333333333 64.0 -15.1666666667 51.275 -20.0 1 0.66000397
72 53.0 68.4285714286 -15.4285714286 58.3 -15.0 1 0.15347747
73 55.4 67.1666666667 -11.7666666667 44.32 -34.0 1 0.23349477
74 55.4 67.1666666667 -11.7666666667 60.94 -9.0 1 0.13574438
75 53.0 68.4285714286 -15.4285714286 53.0 -23.0 1 0.23065388
76 53.0 68.4285714286 -15.4285714286 42.4 -38.0 1 0.24684559
77 51.9 63.0 -11.1 54.495 -14.0 1 0.26314729
78 55.4 67.1666666667 -11.7666666667 52.63 -22.0 1 0.38414896
79 53.0 68.4285714286 -15.4285714286 53.0 -23.0 1 0.2435231
80 53.0 68.4285714286 -15.4285714286 63.6 -7.0 1 0.16680545
81 53.0 68.4285714286 -15.4285714286 42.4 -38.0 1 0.21747793
82 51.9 63.0 -11.1 62.28 -1.0 1 0.17664681
83 55.4 67.1666666667 -11.7666666667 55.4 -18.0 1 0.20093542
84 51.9 63.0 -11.1 57.09 -9.0 1 0.15011744
85 51.9 63.0 -11.1 62.28 -1.0 1 0.12388047
86 53.0 68.4285714286 -15.4285714286 53.0 -23.0 1 0.13105006
87 53.0 68.4285714286 -15.4285714286 47.7 -30.0 1 0.27357623
88 53.0 68.4285714286 -15.4285714286 55.65 -19.0 0 0.43358591
89 53.0 68.4285714286 -15.4285714286 55.65 -19.0 1 0.16367917
90 55.4 67.1666666667 -11.7666666667 55.4 -18.0 0 0.44529245
91 53.0 68.4285714286 -15.4285714286 55.65 -19.0 0 0.29267953
92 55.4 67.1666666667 -11.7666666667 49.86 -26.0 1 0.43486772
93 48.8333333333 64.0 -15.1666666667 43.95 -31.0 1 0.34694127
94 55.4 67.1666666667 -11.7666666667 66.48 -1.0 1 0.22564499
95 53.0 68.4285714286 -15.4285714286 50.35 -26.0 0 0.3677779
96 48.8333333333 64.0 -15.1666666667 46.3916666666 -28.0 0 0.59321194
97 48.8333333333 64.0 -15.1666666667 46.3916666666 -28.0 0 0.33776059
98 55.4 67.1666666667 -11.7666666667 66.48 -1.0 1 0.30638555
99 48.8333333333 64.0 -15.1666666667 51.275 -20.0 1 0.52311731
100 55.4 67.1666666667 -11.7666666667 58.17 -13.0 1 0.18192041
101 48.8333333333 64.0 -15.1666666667 39.0666666666 -39.0 1 0.43382286
102 51.9 63.0 -11.1 51.9 -18.0 0 0.38261908
103 48.8333333333 64.0 -15.1666666667 51.275 -20.0 0 0.22467141
104 55.4 67.1666666667 -11.7666666667 58.17 -13.0 1 0.16885371
105 51.9 63.0 -11.1 49.305 -22.0 1 0.38786625
106 48.8333333333 64.0 -15.1666666667 48.8333333333 -24.0 1 0.33172593
107 48.8333333333 64.0 -15.1666666667 39.0666666666 -39.0 1 0.26391355
108 53.0 68.4285714286 -15.4285714286 63.6 -7.0 1 0.14983241
109 55.4 67.1666666667 -11.7666666667 66.48 -1.0 1 0.27149369
110 51.9 63.0 -11.1 51.9 -18.0 1 0.26330172
111 53.0 68.4285714286 -15.4285714286 50.35 -26.0 1 0.28276798
112 55.4 67.1666666667 -11.7666666667 66.48 -1.0 1 0.22879997
113 53.0 68.4285714286 -15.4285714286 55.65 -19.0 1 0.19390979
114 51.9 63.0 -11.1 49.305 -22.0 0 0.43798802
115 48.8333333333 64.0 -15.1666666667 39.0666666666 -39.0 1 0.24844687
116 51.9 63.0 -11.1 49.305 -22.0 0 0.32700313
117 51.9 63.0 -11.1 41.52 -34.0 1 0.22643883
118 55.4 67.1666666667 -11.7666666667 44.32 -34.0 1 0.20467864
119 55.4 67.1666666667 -11.7666666667 60.94 -9.0 1 0.12839161
120 53.0 68.4285714286 -15.4285714286 50.35 -26.0 1 0.61994627
121 53.0 68.4285714286 -15.4285714286 53.0 -23.0 1 0.392931
122 48.8333333333 64.0 -15.1666666667 43.95 -31.0 1 0.19446403
123 48.8333333333 64.0 -15.1666666667 48.8333333333 -24.0 0 0.23037923
124 51.9 63.0 -11.1 54.495 -14.0 1 0.47628065
125 55.4 67.1666666667 -11.7666666667 52.63 -22.0 1 0.48743619
126 51.9 63.0 -11.1 62.28 -1.0 1 0.2198432
127 53.0 68.4285714286 -15.4285714286 58.3 -15.0 1 0.15568852
128 55.4 67.1666666667 -11.7666666667 55.4 -18.0 1 0.16327548
129 48.8333333333 64.0 -15.1666666667 46.3916666666 -28.0 1 0.23367229
130 51.9 63.0 -11.1 62.28 -1.0 1 0.10879615
131 48.8333333333 64.0 -15.1666666667 53.7166666666 -16.0 1 0.19112035
132 55.4 67.1666666667 -11.7666666667 52.63 -22.0 1 0.17628516
133 51.9 63.0 -11.1 49.305 -22.0 1 0.33861978
134 53.0 68.4285714286 -15.4285714286 58.3 -15.0 1 0.14700371
135 55.4 67.1666666667 -11.7666666667 44.32 -34.0 1 0.30010377
136 51.9 63.0 -11.1 46.71 -26.0 1 0.25297437
137 55.4 67.1666666667 -11.7666666667 55.4 -18.0 1 0.25254686
138 55.4 67.1666666667 -11.7666666667 55.4 -18.0 1 0.17503947
139 48.8333333333 64.0 -15.1666666667 39.0666666666 -39.0 0 0.62660376
140 55.4 67.1666666667 -11.7666666667 49.86 -26.0 1 0.59338226
141 53.0 68.4285714286 -15.4285714286 50.35 -26.0 1 0.33600407
142 53.0 68.4285714286 -15.4285714286 47.7 -30.0 1 0.33537064
143 53.0 68.4285714286 -15.4285714286 42.4 -38.0 1 0.46596536
144 48.8333333333 64.0 -15.1666666667 43.95 -31.0 1 0.43540286
145 53.0 68.4285714286 -15.4285714286 58.3 -15.0 1 0.24613507
146 51.9 63.0 -11.1 46.71 -26.0 1 0.47400088
147 51.9 63.0 -11.1 46.71 -26.0 1 0.3201813
148 53.0 68.4285714286 -15.4285714286 50.35 -26.0 0 0.57980535
149 53.0 68.4285714286 -15.4285714286 47.7 -30.0 1 0.211384
150 51.9 63.0 -11.1 54.495 -14.0 1 0.32652653
151 51.9 63.0 -11.1 49.305 -22.0 0 0.2594369
152 48.8333333333 64.0 -15.1666666667 48.8333333333 -24.0 1 0.49906071
153 53.0 68.4285714286 -15.4285714286 63.6 -7.0 1 0.19108096
154 53.0 68.4285714286 -15.4285714286 42.4 -38.0 1 0.18400377
155 55.4 67.1666666667 -11.7666666667 44.32 -34.0 1 0.23795315
156 53.0 68.4285714286 -15.4285714286 53.0 -23.0 1 0.31654553
157 51.9 63.0 -11.1 51.9 -18.0 1 0.34486005
158 53.0 68.4285714286 -15.4285714286 42.4 -38.0 1 0.1620041
159 53.0 68.4285714286 -15.4285714286 58.3 -15.0 1 0.11627551
160 51.9 63.0 -11.1 41.52 -34.0 1 0.20179573
161 53.0 68.4285714286 -15.4285714286 42.4 -38.0 1 0.12643584
162 51.9 63.0 -11.1 62.28 -1.0 1 0.0952135699999
163 53.0 68.4285714286 -15.4285714286 53.0 -23.0 0 0.33680774
164 55.4 67.1666666667 -11.7666666667 49.86 -26.0 1 0.20080331
165 48.8333333333 64.0 -15.1666666667 43.95 -31.0 1 0.21371109
166 53.0 68.4285714286 -15.4285714286 58.3 -15.0 1 0.10277219
167 51.9 63.0 -11.1 41.52 -34.0 1 0.20954119
168 48.8333333333 64.0 -15.1666666667 43.95 -31.0 1 0.17266676
169 55.4 67.1666666667 -11.7666666667 60.94 -9.0 1 0.0919001599999
170 55.4 67.1666666667 -11.7666666667 60.94 -9.0 1 0.11929005
171 53.0 68.4285714286 -15.4285714286 47.7 -30.0 0 0.6850292
172 48.8333333333 64.0 -15.1666666667 51.275 -20.0 1 0.37665143
173 51.9 63.0 -11.1 51.9 -18.0 1 0.32371544
174 48.8333333333 64.0 -15.1666666667 51.275 -20.0 1 0.19736612
175 55.4 67.1666666667 -11.7666666667 66.48 -1.0 1 0.31572362
176 48.8333333333 64.0 -15.1666666667 58.6 -8.0 1 0.13730387
177 48.8333333333 64.0 -15.1666666667 53.7166666666 -16.0 1 0.24566337
178 48.8333333333 64.0 -15.1666666667 48.8333333333 -24.0 1 0.25346275
179 51.9 63.0 -11.1 57.09 -9.0 1 0.14433995
180 55.4 67.1666666667 -11.7666666667 44.32 -34.0 1 1.42630424
181 51.9 63.0 -11.1 57.09 -9.0 1 0.15599849
182 55.4 67.1666666667 -11.7666666667 49.86 -26.0 1 0.45541795
183 53.0 68.4285714286 -15.4285714286 58.3 -15.0 1 0.21255421
184 55.4 67.1666666667 -11.7666666667 49.86 -26.0 0 0.69601909
185 55.4 67.1666666667 -11.7666666667 58.17 -13.0 1 0.22507759
186 48.8333333333 64.0 -15.1666666667 58.6 -8.0 1 0.22752304
187 51.9 63.0 -11.1 46.71 -26.0 0 0.79035696
188 48.8333333333 64.0 -15.1666666667 53.7166666666 -16.0 1 0.28375569
189 51.9 63.0 -11.1 54.495 -14.0 0 0.27215335
190 53.0 68.4285714286 -15.4285714286 63.6 -7.0 1 0.16024562
191 51.9 63.0 -11.1 49.305 -22.0 0 0.52561984
192 53.0 68.4285714286 -15.4285714286 42.4 -38.0 1 0.21281181
193 51.9 63.0 -11.1 57.09 -9.0 1 0.14724277
194 48.8333333333 64.0 -15.1666666667 48.8333333333 -24.0 1 0.40215203
195 53.0 68.4285714286 -15.4285714286 63.6 -7.0 1 0.13474239
196 55.4 67.1666666667 -11.7666666667 52.63 -22.0 0 0.30716341
197 51.9 63.0 -11.1 49.305 -22.0 1 0.37605782
198 55.4 67.1666666667 -11.7666666667 58.17 -13.0 1 0.12180742
199 51.9 63.0 -11.1 51.9 -18.0 1 0.38663078
200 55.4 67.1666666667 -11.7666666667 55.4 -18.0 1 0.66291988
201 55.4 67.1666666667 -11.7666666667 60.94 -9.0 1 0.27237415
202 55.4 67.1666666667 -11.7666666667 66.48 -1.0 1 0.26463705
203 51.9 63.0 -11.1 57.09 -9.0 1 0.19787609
204 55.4 67.1666666667 -11.7666666667 52.63 -22.0 1 0.64642405
205 51.9 63.0 -11.1 54.495 -14.0 1 0.39372055
206 48.8333333333 64.0 -15.1666666667 39.0666666666 -39.0 1 0.15691369
207 53.0 68.4285714286 -15.4285714286 47.7 -30.0 1 0.13443705
208 53.0 68.4285714286 -15.4285714286 47.7 -30.0 1 0.27299049
209 48.8333333333 64.0 -15.1666666667 53.7166666666 -16.0 1 0.15284573
210 48.8333333333 64.0 -15.1666666667 46.3916666666 -28.0 1 0.13712781
211 55.4 67.1666666667 -11.7666666667 44.32 -34.0 1 0.52452252
212 53.0 68.4285714286 -15.4285714286 63.6 -7.0 1 0.0970442
213 53.0 68.4285714286 -15.4285714286 55.65 -19.0 1 0.1309596
214 51.9 63.0 -11.1 62.28 -1.0 1 0.11412045
215 51.9 63.0 -11.1 41.52 -34.0 1 0.18353627
216 48.8333333333 64.0 -15.1666666667 53.7166666666 -16.0 1 0.22264585
217 55.4 67.1666666667 -11.7666666667 66.48 -1.0 1 0.19441895
218 48.8333333333 64.0 -15.1666666667 58.6 -8.0 1 0.10949546
219 53.0 68.4285714286 -15.4285714286 47.7 -30.0 1 0.22197248
220 55.4 67.1666666667 -11.7666666667 52.63 -22.0 1 0.27293772
221 48.8333333333 64.0 -15.1666666667 53.7166666666 -16.0 1 0.34860951
222 51.9 63.0 -11.1 49.305 -22.0 1 0.32633315
223 53.0 68.4285714286 -15.4285714286 55.65 -19.0 1 0.17205575
224 48.8333333333 64.0 -15.1666666667 46.3916666666 -28.0 1 0.24678462
225 48.8333333333 64.0 -15.1666666667 51.275 -20.0 1 0.23696127
226 48.8333333333 64.0 -15.1666666667 48.8333333333 -24.0 1 0.30805145
227 51.9 63.0 -11.1 62.28 -1.0 1 0.18419099
228 55.4 67.1666666667 -11.7666666667 58.17 -13.0 1 0.1626652
229 48.8333333333 64.0 -15.1666666667 39.0666666666 -39.0 0 0.42744283
230 48.8333333333 64.0 -15.1666666667 46.3916666666 -28.0 1 0.3790049
231 48.8333333333 64.0 -15.1666666667 39.0666666666 -39.0 1 0.26669132
232 51.9 63.0 -11.1 62.28 -1.0 1 0.25734419
233 48.8333333333 64.0 -15.1666666667 51.275 -20.0 1 0.26935821
234 55.4 67.1666666667 -11.7666666667 60.94 -9.0 1 0.15303383
235 48.8333333333 64.0 -15.1666666667 48.8333333333 -24.0 1 0.19139794
236 51.9 63.0 -11.1 49.305 -22.0 1 0.1703826
237 51.9 63.0 -11.1 62.28 -1.0 1 0.26727599
238 48.8333333333 64.0 -15.1666666667 53.7166666666 -16.0 1 0.18736288
239 55.4 67.1666666667 -11.7666666667 60.94 -9.0 1 0.14747284
240 55.4 67.1666666667 -11.7666666667 60.94 -9.0 1 0.10588076
241 55.4 67.1666666667 -11.7666666667 55.4 -18.0 1 0.1985948
242 51.9 63.0 -11.1 57.09 -9.0 1 0.13687834
243 53.0 68.4285714286 -15.4285714286 58.3 -15.0 1 0.09972051
244 55.4 67.1666666667 -11.7666666667 49.86 -26.0 1 0.18450248
245 55.4 67.1666666667 -11.7666666667 60.94 -9.0 1 0.16501324
246 55.4 67.1666666667 -11.7666666667 55.4 -18.0 1 0.13194098
247 51.9 63.0 -11.1 57.09 -9.0 1 0.29545123
248 55.4 67.1666666667 -11.7666666667 52.63 -22.0 0 0.21198271
249 51.9 63.0 -11.1 54.495 -14.0 1 0.34439638
250 53.0 68.4285714286 -15.4285714286 47.7 -30.0 1 0.25792354
251 53.0 68.4285714286 -15.4285714286 42.4 -38.0 1 0.32487962
252 51.9 63.0 -11.1 41.52 -34.0 1 0.53582952
253 55.4 67.1666666667 -11.7666666667 44.32 -34.0 1 0.25446989
254 51.9 63.0 -11.1 41.52 -34.0 1 0.29472385
255 55.4 67.1666666667 -11.7666666667 55.4 -18.0 0 0.38553625
256 53.0 68.4285714286 -15.4285714286 58.3 -15.0 1 0.41435556
257 48.8333333333 64.0 -15.1666666667 46.3916666666 -28.0 1 0.29181369
258 48.8333333333 64.0 -15.1666666667 58.6 -8.0 1 0.53340221
259 53.0 68.4285714286 -15.4285714286 55.65 -19.0 1 0.5186836
260 51.9 63.0 -11.1 51.9 -18.0 1 0.66179736
261 51.9 63.0 -11.1 49.305 -22.0 1 0.31833148
262 48.8333333333 64.0 -15.1666666667 51.275 -20.0 1 0.36986346
263 53.0 68.4285714286 -15.4285714286 53.0 -23.0 1 0.23643924
264 48.8333333333 64.0 -15.1666666667 51.275 -20.0 1 0.25197917
265 48.8333333333 64.0 -15.1666666667 39.0666666666 -39.0 1 0.58219976
266 53.0 68.4285714286 -15.4285714286 55.65 -19.0 1 0.3052459
267 53.0 68.4285714286 -15.4285714286 47.7 -30.0 0 0.34242587
268 51.9 63.0 -11.1 46.71 -26.0 1 0.50108492
269 53.0 68.4285714286 -15.4285714286 63.6 -7.0 1 0.33893803
270 55.4 67.1666666667 -11.7666666667 49.86 -26.0 0 0.40971866
271 55.4 67.1666666667 -11.7666666667 60.94 -9.0 1 0.29489432
272 51.9 63.0 -11.1 46.71 -26.0 0 0.55040022
273 55.4 67.1666666667 -11.7666666667 55.4 -18.0 1 0.70300089
274 55.4 67.1666666667 -11.7666666667 55.4 -18.0 0 0.30907199
275 51.9 63.0 -11.1 57.09 -9.0 1 0.22257374
276 48.8333333333 64.0 -15.1666666667 48.8333333333 -24.0 1 0.34332177
277 51.9 63.0 -11.1 41.52 -34.0 1 0.29198265
278 48.8333333333 64.0 -15.1666666667 43.95 -31.0 1 0.23825399
279 55.4 67.1666666667 -11.7666666667 52.63 -22.0 0 0.39876156
280 48.8333333333 64.0 -15.1666666667 58.6 -8.0 1 0.21856615
281 48.8333333333 64.0 -15.1666666667 43.95 -31.0 1 0.2247995
282 53.0 68.4285714286 -15.4285714286 47.7 -30.0 0 0.45705326
283 55.4 67.1666666667 -11.7666666667 60.94 -9.0 1 0.16912171
284 51.9 63.0 -11.1 57.09 -9.0 1 0.19727484
285 51.9 63.0 -11.1 57.09 -9.0 1 0.29537976
286 51.9 63.0 -11.1 54.495 -14.0 1 0.31413009
287 48.8333333333 64.0 -15.1666666667 58.6 -8.0 1 0.14815923
288 53.0 68.4285714286 -15.4285714286 50.35 -26.0 1 0.4161287
289 48.8333333333 64.0 -15.1666666667 51.275 -20.0 1 0.3448718
290 48.8333333333 64.0 -15.1666666667 53.7166666666 -16.0 1 0.17761512
291 48.8333333333 64.0 -15.1666666667 53.7166666666 -16.0 1 0.15951432
292 51.9 63.0 -11.1 62.28 -1.0 1 0.16825719
293 55.4 67.1666666667 -11.7666666667 55.4 -18.0 1 0.1918115
294 53.0 68.4285714286 -15.4285714286 55.65 -19.0 1 0.0636018800001
295 48.8333333333 64.0 -15.1666666667 39.0666666666 -39.0 1 0.07580884
296 51.9 63.0 -11.1 41.52 -34.0 1 0.11356141
297 48.8333333333 64.0 -15.1666666667 58.6 -8.0 1 0.09029603
298 51.9 63.0 -11.1 46.71 -26.0 1 0.17062585
299 55.4 67.1666666667 -11.7666666667 58.17 -13.0 1 0.0909217200001
300 53.0 68.4285714286 -15.4285714286 50.35 -26.0 0 0.29666787
301 48.8333333333 64.0 -15.1666666667 46.3916666666 -28.0 1 0.13788936
302 51.9 63.0 -11.1 54.495 -14.0 1 0.32489892
303 55.4 67.1666666667 -11.7666666667 60.94 -9.0 1 0.12144087
304 48.8333333333 64.0 -15.1666666667 46.3916666666 -28.0 1 0.20601255
305 51.9 63.0 -11.1 41.52 -34.0 1 0.22703392
306 48.8333333333 64.0 -15.1666666667 43.95 -31.0 1 0.22274168
307 48.8333333333 64.0 -15.1666666667 48.8333333333 -24.0 1 0.29586165
308 53.0 68.4285714286 -15.4285714286 47.7 -30.0 1 0.26617875
309 48.8333333333 64.0 -15.1666666667 51.275 -20.0 1 0.30525738
310 55.4 67.1666666667 -11.7666666667 44.32 -34.0 1 0.52578693
311 55.4 67.1666666667 -11.7666666667 49.86 -26.0 1 0.53347163
312 51.9 63.0 -11.1 54.495 -14.0 1 0.25978603
313 53.0 68.4285714286 -15.4285714286 50.35 -26.0 1 0.37376739
314 53.0 68.4285714286 -15.4285714286 55.65 -19.0 1 0.19475699
315 53.0 68.4285714286 -15.4285714286 50.35 -26.0 1 0.28787539
316 51.9 63.0 -11.1 41.52 -34.0 1 0.13497582
317 48.8333333333 64.0 -15.1666666667 51.275 -20.0 1 0.37192969
318 53.0 68.4285714286 -15.4285714286 63.6 -7.0 1 0.11525852
319 53.0 68.4285714286 -15.4285714286 63.6 -7.0 1 0.10077258
320 48.8333333333 64.0 -15.1666666667 58.6 -8.0 1 0.0886782299999
321 55.4 67.1666666667 -11.7666666667 44.32 -34.0 1 0.30888759
322 51.9 63.0 -11.1 62.28 -1.0 1 0.12622413
323 48.8333333333 64.0 -15.1666666667 43.95 -31.0 1 0.12954994
324 51.9 63.0 -11.1 54.495 -14.0 1 0.14032629
325 48.8333333333 64.0 -15.1666666667 46.3916666666 -28.0 1 0.11978097
326 51.9 63.0 -11.1 57.09 -9.0 1 0.16701475
327 53.0 68.4285714286 -15.4285714286 42.4 -38.0 1 0.52688466
328 51.9 63.0 -11.1 57.09 -9.0 1 0.30802104
329 48.8333333333 64.0 -15.1666666667 51.275 -20.0 1 0.28052104
330 53.0 68.4285714286 -15.4285714286 53.0 -23.0 1 0.21038692
331 53.0 68.4285714286 -15.4285714286 63.6 -7.0 1 0.26819183
332 53.0 68.4285714286 -15.4285714286 42.4 -38.0 1 0.43201667
333 51.9 63.0 -11.1 41.52 -34.0 1 0.33484193
334 55.4 67.1666666667 -11.7666666667 66.48 -1.0 1 0.31123581
335 53.0 68.4285714286 -15.4285714286 50.35 -26.0 0 0.37485839
336 48.8333333333 64.0 -15.1666666667 46.3916666666 -28.0 0 0.7613284
337 51.9 63.0 -11.1 54.495 -14.0 1 0.54083986
338 48.8333333333 64.0 -15.1666666667 58.6 -8.0 1 0.16047559
339 48.8333333333 64.0 -15.1666666667 43.95 -31.0 1 0.2972222
340 48.8333333333 64.0 -15.1666666667 58.6 -8.0 1 0.1418084
341 51.9 63.0 -11.1 46.71 -26.0 0 0.4362017
342 51.9 63.0 -11.1 57.09 -9.0 1 0.17414263
343 53.0 68.4285714286 -15.4285714286 42.4 -38.0 1 0.16632385
344 51.9 63.0 -11.1 51.9 -18.0 0 0.39510845
345 55.4 67.1666666667 -11.7666666667 60.94 -9.0 1 0.13153311
346 51.9 63.0 -11.1 54.495 -14.0 0 0.31390075
347 48.8333333333 64.0 -15.1666666667 43.95 -31.0 1 0.0996634799999
348 48.8333333333 64.0 -15.1666666667 48.8333333333 -24.0 1 0.40169472
349 55.4 67.1666666667 -11.7666666667 44.32 -34.0 1 0.25162376
350 51.9 63.0 -11.1 54.495 -14.0 0 0.75731936
351 53.0 68.4285714286 -15.4285714286 53.0 -23.0 0 0.68100074
352 48.8333333333 64.0 -15.1666666667 39.0666666666 -39.0 0 0.86621443
353 55.4 67.1666666667 -11.7666666667 49.86 -26.0 0 0.83170121
354 48.8333333333 64.0 -15.1666666667 46.3916666666 -28.0 1 0.5601097
355 48.8333333333 64.0 -15.1666666667 48.8333333333 -24.0 0 0.63736208
356 55.4 67.1666666667 -11.7666666667 58.17 -13.0 1 0.21587885
357 53.0 68.4285714286 -15.4285714286 47.7 -30.0 0 0.30458962
358 48.8333333333 64.0 -15.1666666667 58.6 -8.0 1 0.15481227
359 53.0 68.4285714286 -15.4285714286 50.35 -26.0 0 0.26633563
360 55.4 67.1666666667 -11.7666666667 52.63 -22.0 0 0.3063407
361 53.0 68.4285714286 -15.4285714286 47.7 -30.0 1 0.17007929
362 53.0 68.4285714286 -15.4285714286 53.0 -23.0 1 0.23033116
363 55.4 67.1666666667 -11.7666666667 58.17 -13.0 1 0.25138903
364 55.4 67.1666666667 -11.7666666667 66.48 -1.0 1 0.25437288
365 51.9 63.0 -11.1 54.495 -14.0 1 0.37039568
366 48.8333333333 64.0 -15.1666666667 58.6 -8.0 1 0.22012893
367 48.8333333333 64.0 -15.1666666667 58.6 -8.0 1 0.13161444
368 53.0 68.4285714286 -15.4285714286 53.0 -23.0 1 0.3249732
369 51.9 63.0 -11.1 62.28 -1.0 1 0.17374723
370 53.0 68.4285714286 -15.4285714286 50.35 -26.0 0 0.48134182
371 48.8333333333 64.0 -15.1666666667 58.6 -8.0 1 0.12878939
372 53.0 68.4285714286 -15.4285714286 50.35 -26.0 1 0.47577224
373 53.0 68.4285714286 -15.4285714286 53.0 -23.0 1 0.35601737
374 55.4 67.1666666667 -11.7666666667 49.86 -26.0 0 0.49945783
375 55.4 67.1666666667 -11.7666666667 60.94 -9.0 1 0.19315154
376 53.0 68.4285714286 -15.4285714286 55.65 -19.0 1 0.288136
377 55.4 67.1666666667 -11.7666666667 66.48 -1.0 1 0.15054327
378 51.9 63.0 -11.1 46.71 -26.0 0 0.37380436
379 55.4 67.1666666667 -11.7666666667 44.32 -34.0 1 0.36238139
380 55.4 67.1666666667 -11.7666666667 60.94 -9.0 1 0.18617843
381 53.0 68.4285714286 -15.4285714286 58.3 -15.0 1 0.13829918
382 53.0 68.4285714286 -15.4285714286 58.3 -15.0 1 0.11228843
383 48.8333333333 64.0 -15.1666666667 39.0666666666 -39.0 0 0.4544342
384 53.0 68.4285714286 -15.4285714286 42.4 -38.0 0 0.29940074
385 53.0 68.4285714286 -15.4285714286 58.3 -15.0 1 0.09649236
386 48.8333333333 64.0 -15.1666666667 46.3916666666 -28.0 1 0.27420746
387 53.0 68.4285714286 -15.4285714286 58.3 -15.0 1 0.13349966
388 51.9 63.0 -11.1 57.09 -9.0 1 0.10920288
389 51.9 63.0 -11.1 49.305 -22.0 0 0.31501254
390 51.9 63.0 -11.1 49.305 -22.0 1 0.34954811
391 48.8333333333 64.0 -15.1666666667 51.275 -20.0 1 0.20085929
392 51.9 63.0 -11.1 49.305 -22.0 1 0.17511311
393 51.9 63.0 -11.1 49.305 -22.0 1 0.22339588
394 53.0 68.4285714286 -15.4285714286 58.3 -15.0 1 0.0874410099998
395 55.4 67.1666666667 -11.7666666667 49.86 -26.0 0 0.41959789
396 53.0 68.4285714286 -15.4285714286 42.4 -38.0 1 0.12838907
397 53.0 68.4285714286 -15.4285714286 58.3 -15.0 1 0.0765322
398 51.9 63.0 -11.1 49.305 -22.0 0 0.46010272
399 53.0 68.4285714286 -15.4285714286 63.6 -7.0 1 0.0402379699999
400 51.9 63.0 -11.1 51.9 -18.0 1 0.24226263
401 55.4 67.1666666667 -11.7666666667 58.17 -13.0 1 0.12488836
402 51.9 63.0 -11.1 57.09 -9.0 1 0.0776626700001
403 51.9 63.0 -11.1 62.28 -1.0 1 0.1198943
404 48.8333333333 64.0 -15.1666666667 58.6 -8.0 1 0.10144908
405 48.8333333333 64.0 -15.1666666667 46.3916666666 -28.0 0 0.28704323
406 53.0 68.4285714286 -15.4285714286 63.6 -7.0 1 0.0647161699999
407 51.9 63.0 -11.1 46.71 -26.0 0 0.32159948
408 55.4 67.1666666667 -11.7666666667 44.32 -34.0 1 0.67709669
409 51.9 63.0 -11.1 41.52 -34.0 1 0.37252451
410 48.8333333333 64.0 -15.1666666667 58.6 -8.0 1 0.14237623
411 48.8333333333 64.0 -15.1666666667 58.6 -8.0 1 0.0828951399999
412 55.4 67.1666666667 -11.7666666667 52.63 -22.0 0 0.27656006
413 51.9 63.0 -11.1 57.09 -9.0 1 0.51733065
414 55.4 67.1666666667 -11.7666666667 52.63 -22.0 0 0.24130617
415 48.8333333333 64.0 -15.1666666667 48.8333333333 -24.0 1 0.32119983
416 51.9 63.0 -11.1 41.52 -34.0 1 0.52916445
417 48.8333333333 64.0 -15.1666666667 58.6 -8.0 1 0.17625736
418 48.8333333333 64.0 -15.1666666667 53.7166666666 -16.0 1 0.29583851
419 51.9 63.0 -11.1 62.28 -1.0 1 0.22270076
420 55.4 67.1666666667 -11.7666666667 49.86 -26.0 0 0.9086194
421 55.4 67.1666666667 -11.7666666667 60.94 -9.0 1 0.10298448
422 53.0 68.4285714286 -15.4285714286 50.35 -26.0 1 0.37556252
423 53.0 68.4285714286 -15.4285714286 42.4 -38.0 1 0.31137803
424 48.8333333333 64.0 -15.1666666667 48.8333333333 -24.0 0 0.49056999
425 55.4 67.1666666667 -11.7666666667 60.94 -9.0 1 0.14438201
426 55.4 67.1666666667 -11.7666666667 52.63 -22.0 0 0.23303427
427 55.4 67.1666666667 -11.7666666667 58.17 -13.0 1 0.15009386
428 55.4 67.1666666667 -11.7666666667 52.63 -22.0 0 0.27900044
429 55.4 67.1666666667 -11.7666666667 52.63 -22.0 0 0.29142868
430 48.8333333333 64.0 -15.1666666667 39.0666666666 -39.0 0 0.45428385
431 55.4 67.1666666667 -11.7666666667 55.4 -18.0 0 0.22976544
432 51.9 63.0 -11.1 51.9 -18.0 1 0.52813685
433 48.8333333333 64.0 -15.1666666667 53.7166666666 -16.0 1 0.26017305
434 55.4 67.1666666667 -11.7666666667 44.32 -34.0 1 0.41334407
435 48.8333333333 64.0 -15.1666666667 43.95 -31.0 1 0.25999329
436 53.0 68.4285714286 -15.4285714286 53.0 -23.0 1 0.2849849
437 55.4 67.1666666667 -11.7666666667 55.4 -18.0 1 0.56950521
438 55.4 67.1666666667 -11.7666666667 49.86 -26.0 1 0.44775805
439 55.4 67.1666666667 -11.7666666667 66.48 -1.0 1 0.24515743
440 53.0 68.4285714286 -15.4285714286 53.0 -23.0 1 0.53621913
441 48.8333333333 64.0 -15.1666666667 43.95 -31.0 0 0.42882661
442 55.4 67.1666666667 -11.7666666667 58.17 -13.0 1 0.13699478
443 48.8333333333 64.0 -15.1666666667 51.275 -20.0 1 0.27109729
444 53.0 68.4285714286 -15.4285714286 63.6 -7.0 1 0.24419216
445 53.0 68.4285714286 -15.4285714286 63.6 -7.0 1 0.19368982
446 48.8333333333 64.0 -15.1666666667 51.275 -20.0 1 0.3072864
447 51.9 63.0 -11.1 62.28 -1.0 1 0.22989094
448 51.9 63.0 -11.1 62.28 -1.0 1 0.26096414
449 53.0 68.4285714286 -15.4285714286 53.0 -23.0 1 0.2344056
450 55.4 67.1666666667 -11.7666666667 58.17 -13.0 1 0.16041651
451 53.0 68.4285714286 -15.4285714286 50.35 -26.0 1 0.36118963
452 51.9 63.0 -11.1 57.09 -9.0 1 0.13411021
453 53.0 68.4285714286 -15.4285714286 42.4 -38.0 1 0.35162283
454 55.4 67.1666666667 -11.7666666667 52.63 -22.0 1 0.23673516
455 51.9 63.0 -11.1 51.9 -18.0 1 0.18632889
456 53.0 68.4285714286 -15.4285714286 55.65 -19.0 1 0.11562057
457 55.4 67.1666666667 -11.7666666667 49.86 -26.0 1 0.22704194
458 48.8333333333 64.0 -15.1666666667 53.7166666666 -16.0 1 0.27406492
459 48.8333333333 64.0 -15.1666666667 53.7166666666 -16.0 1 0.2218968
460 55.4 67.1666666667 -11.7666666667 49.86 -26.0 1 0.11723506
461 55.4 67.1666666667 -11.7666666667 55.4 -18.0 1 0.14748275
462 51.9 63.0 -11.1 51.9 -18.0 1 0.19276258
463 48.8333333333 64.0 -15.1666666667 39.0666666666 -39.0 0 0.52776791
464 53.0 68.4285714286 -15.4285714286 58.3 -15.0 1 0.14554658
465 48.8333333333 64.0 -15.1666666667 39.0666666666 -39.0 1 0.45125036
466 55.4 67.1666666667 -11.7666666667 44.32 -34.0 0 0.35796663
467 48.8333333333 64.0 -15.1666666667 51.275 -20.0 1 0.23701738
468 55.4 67.1666666667 -11.7666666667 66.48 -1.0 1 0.17360654
469 48.8333333333 64.0 -15.1666666667 48.8333333333 -24.0 0 0.53750051
470 48.8333333333 64.0 -15.1666666667 53.7166666666 -16.0 1 0.140568
471 48.8333333333 64.0 -15.1666666667 43.95 -31.0 0 0.4046909
472 51.9 63.0 -11.1 54.495 -14.0 1 0.20240494
473 51.9 63.0 -11.1 57.09 -9.0 1 0.13717854
474 53.0 68.4285714286 -15.4285714286 50.35 -26.0 0 0.33764754
475 48.8333333333 64.0 -15.1666666667 39.0666666666 -39.0 1 0.24237691
476 51.9 63.0 -11.1 46.71 -26.0 1 0.20368458
477 55.4 67.1666666667 -11.7666666667 58.17 -13.0 1 0.12494999
478 55.4 67.1666666667 -11.7666666667 58.17 -13.0 1 0.15594636
479 48.8333333333 64.0 -15.1666666667 39.0666666666 -39.0 0 0.56827891
480 48.8333333333 64.0 -15.1666666667 51.275 -20.0 1 0.15763004
481 55.4 67.1666666667 -11.7666666667 55.4 -18.0 0 0.44268716
482 53.0 68.4285714286 -15.4285714286 47.7 -30.0 1 0.79160609
483 55.4 67.1666666667 -11.7666666667 58.17 -13.0 1 0.14701777
484 53.0 68.4285714286 -15.4285714286 47.7 -30.0 1 0.70166016
485 48.8333333333 64.0 -15.1666666667 48.8333333333 -24.0 1 0.3102119
486 51.9 63.0 -11.1 41.52 -34.0 1 0.78770758
487 55.4 67.1666666667 -11.7666666667 58.17 -13.0 1 0.19597088
488 51.9 63.0 -11.1 51.9 -18.0 1 0.52603109
489 53.0 68.4285714286 -15.4285714286 53.0 -23.0 1 0.5441535
490 53.0 68.4285714286 -15.4285714286 47.7 -30.0 1 0.37061523
491 55.4 67.1666666667 -11.7666666667 66.48 -1.0 1 0.20590978
492 51.9 63.0 -11.1 41.52 -34.0 1 0.33952246
493 55.4 67.1666666667 -11.7666666667 58.17 -13.0 1 0.24192864
494 51.9 63.0 -11.1 41.52 -34.0 1 0.63156415
495 51.9 63.0 -11.1 54.495 -14.0 1 0.35807403
496 48.8333333333 64.0 -15.1666666667 48.8333333333 -24.0 1 0.24628503
497 51.9 63.0 -11.1 62.28 -1.0 1 0.19155069
498 51.9 63.0 -11.1 62.28 -1.0 1 0.20348577
499 48.8333333333 64.0 -15.1666666667 48.8333333333 -24.0 1 0.44651839
500 51.9 63.0 -11.1 41.52 -34.0 1 0.78942679
501 55.4 67.1666666667 -11.7666666667 66.48 -1.0 1 0.2891331
502 55.4 67.1666666667 -11.7666666667 66.48 -1.0 1 0.21923919
503 51.9 63.0 -11.1 46.71 -26.0 0 0.42253069
504 48.8333333333 64.0 -15.1666666667 48.8333333333 -24.0 0 0.3830138
505 55.4 67.1666666667 -11.7666666667 58.17 -13.0 1 0.18901942
506 51.9 63.0 -11.1 46.71 -26.0 0 0.48551067
507 48.8333333333 64.0 -15.1666666667 51.275 -20.0 1 0.25440197
508 55.4 67.1666666667 -11.7666666667 44.32 -34.0 1 0.48039857
509 53.0 68.4285714286 -15.4285714286 55.65 -19.0 1 0.31678126
510 48.8333333333 64.0 -15.1666666667 53.7166666666 -16.0 1 0.21939098
511 48.8333333333 64.0 -15.1666666667 48.8333333333 -24.0 0 0.49087821
512 55.4 67.1666666667 -11.7666666667 55.4 -18.0 1 0.24924501
513 48.8333333333 64.0 -15.1666666667 53.7166666666 -16.0 1 0.21807193
514 53.0 68.4285714286 -15.4285714286 50.35 -26.0 0 0.49919414
515 55.4 67.1666666667 -11.7666666667 58.17 -13.0 1 0.17872297
516 55.4 67.1666666667 -11.7666666667 55.4 -18.0 0 0.34666475
517 55.4 67.1666666667 -11.7666666667 66.48 -1.0 1 0.21860994
518 53.0 68.4285714286 -15.4285714286 42.4 -38.0 1 0.3086566
519 51.9 63.0 -11.1 46.71 -26.0 1 0.68753118
520 51.9 63.0 -11.1 62.28 -1.0 1 0.17109281
521 53.0 68.4285714286 -15.4285714286 50.35 -26.0 0 0.34689971
522 48.8333333333 64.0 -15.1666666667 39.0666666666 -39.0 1 0.4473206
523 55.4 67.1666666667 -11.7666666667 66.48 -1.0 1 0.22718966
524 53.0 68.4285714286 -15.4285714286 53.0 -23.0 0 0.29617054
525 48.8333333333 64.0 -15.1666666667 53.7166666666 -16.0 1 0.31737572
526 55.4 67.1666666667 -11.7666666667 52.63 -22.0 0 0.36433071
527 51.9 63.0 -11.1 54.495 -14.0 0 0.52440072
528 48.8333333333 64.0 -15.1666666667 43.95 -31.0 1 0.45171659
529 48.8333333333 64.0 -15.1666666667 46.3916666666 -28.0 1 0.28634194
530 53.0 68.4285714286 -15.4285714286 63.6 -7.0 0 1.01121697
531 53.0 68.4285714286 -15.4285714286 58.3 -15.0 1 0.99656106
532 55.4 67.1666666667 -11.7666666667 55.4 -18.0 0 0.28812369
533 51.9 63.0 -11.1 51.9 -18.0 0 0.22824694
534 48.8333333333 64.0 -15.1666666667 43.95 -31.0 0 0.49408919
535 55.4 67.1666666667 -11.7666666667 44.32 -34.0 1 1.02215165
536 55.4 67.1666666667 -11.7666666667 52.63 -22.0 0 0.22956105
537 53.0 68.4285714286 -15.4285714286 42.4 -38.0 1 0.30795551
538 48.8333333333 64.0 -15.1666666667 39.0666666666 -39.0 1 0.32825883
539 53.0 68.4285714286 -15.4285714286 58.3 -15.0 1 0.44321379
540 51.9 63.0 -11.1 49.305 -22.0 0 0.27726064
541 55.4 67.1666666667 -11.7666666667 49.86 -26.0 1 0.59572205
542 53.0 68.4285714286 -15.4285714286 42.4 -38.0 1 0.83487887
543 53.0 68.4285714286 -15.4285714286 50.35 -26.0 1 0.67994622
544 55.4 67.1666666667 -11.7666666667 60.94 -9.0 1 0.27949287
545 48.8333333333 64.0 -15.1666666667 46.3916666666 -28.0 0 0.23682207
546 55.4 67.1666666667 -11.7666666667 60.94 -9.0 1 0.20809949
547 51.9 63.0 -11.1 57.09 -9.0 1 0.22041338
548 55.4 67.1666666667 -11.7666666667 55.4 -18.0 0 0.36267575
549 51.9 63.0 -11.1 51.9 -18.0 0 0.19329424
550 55.4 67.1666666667 -11.7666666667 44.32 -34.0 1 0.32756492
551 53.0 68.4285714286 -15.4285714286 47.7 -30.0 0 0.52596999
552 51.9 63.0 -11.1 49.305 -22.0 0 0.51639391
553 51.9 63.0 -11.1 46.71 -26.0 0 0.32223325
554 53.0 68.4285714286 -15.4285714286 47.7 -30.0 1 0.75234991
555 48.8333333333 64.0 -15.1666666667 39.0666666666 -39.0 1 0.63281575
556 53.0 68.4285714286 -15.4285714286 55.65 -19.0 1 0.90510521
557 53.0 68.4285714286 -15.4285714286 55.65 -19.0 1 0.47190692
558 48.8333333333 64.0 -15.1666666667 53.7166666666 -16.0 0 1.16444348
559 55.4 67.1666666667 -11.7666666667 44.32 -34.0 1 0.36856117
560 48.8333333333 64.0 -15.1666666667 58.6 -8.0 1 0.22171507
